{
    "id": "policy-tests-x-fhir-query",
    "resourceType": "TestScript",
    "title": "Test x-fhir-query",
    "description": "Tests retrieval with x-fhir-query",
    "contained": [
        {
            "id": "setup",
            "resourceType": "Bundle",
            "type": "transaction",
            "entry": [
                {
                    "fullUrl": "patient1",
                    "request": {
                        "method": "POST",
                        "url": "Patient"
                    },
                    "resource": {
                        "id": "patient1",
                        "resourceType": "Patient",
                        "meta": {
                            "tag": [
                                {
                                    "code": "policy-tests-x-fhir-query"
                                }
                            ]
                        }
                    }
                },
                {
                    "fullUrl": "patient2",
                    "request": {
                        "method": "POST",
                        "url": "Patient"
                    },
                    "resource": {
                        "id": "patient2",
                        "resourceType": "Patient",
                        "meta": {
                            "tag": [
                                {
                                    "code": "policy-tests-x-fhir-query"
                                }
                            ]
                        }
                    }
                },
                {
                    "fullUrl": "encounter1",
                    "request": {
                        "method": "PUT",
                        "url": "Encounter/encounterXFhirQuery1"
                    },
                    "resource": {
                        "id": "encounterXFhirQuery1",
                        "resourceType": "Encounter",
                        "meta": {
                            "tag": [
                                {
                                    "code": "policy-tests-x-fhir-query"
                                }
                            ]
                        },
                        "status": "planned",
                        "subject": {
                            "reference": "patient1"
                        },
                        "class": {
                            "system": "http://terminology.hl7.org/CodeSystem/v3-ActCode",
                            "code": "IMP",
                            "display": "inpatient encounter"
                        }
                    }
                },
                {
                    "fullUrl": "encounter2",
                    "request": {
                        "method": "PUT",
                        "url": "Encounter/encounterXFhirQuery2"
                    },
                    "resource": {
                        "id": "encounterXFhirQuery2",
                        "resourceType": "Encounter",
                        "meta": {
                            "tag": [
                                {
                                    "code": "policy-tests-x-fhir-query"
                                }
                            ]
                        },
                        "status": "planned",
                        "class": {
                            "system": "http://terminology.hl7.org/CodeSystem/v3-ActCode",
                            "code": "IMP",
                            "display": "inpatient encounter"
                        }
                    }
                },
                {
                    "request": {
                        "method": "POST",
                        "url": "Observation"
                    },
                    "resource": {
                        "resourceType": "Observation",
                        "meta": {
                            "tag": [
                                {
                                    "code": "policy-tests-x-fhir-query"
                                }
                            ]
                        },
                        "subject": {
                            "reference": "patient1"
                        },
                        "encounter": {
                            "reference": "encounter1"
                        },
                        "code": {
                            "coding": [
                                {
                                    "code": "15074-8",
                                    "system": "http://loinc.org",
                                    "display": "Glucose [Moles/volume] in Blood"
                                }
                            ]
                        },
                        "status": "final"
                    }
                },
                {
                    "request": {
                        "method": "PUT",
                        "url": "Membership/patient1MemXFhirQuery"
                    },
                    "resource": {
                        "id": "patient1MemXFhirQuery",
                        "resourceType": "Membership",
                        "meta": {
                            "tag": [
                                {
                                    "code": "policy-tests-x-fhir-query"
                                }
                            ]
                        },
                        "link": {
                            "reference": "patient1"
                        },
                        "role": "member",
                        "email": "xFhirQueryTest@iguhealth.app"
                    }
                }
            ]
        },
        {
            "resourceType": "AccessPolicyV2",
            "engine": "rule-engine",
            "id": "patient-access-policy",
            "name": "Patient Access Policy",
            "description": "Policy for patient access.",
            "meta": {
                "tag": [
                    {
                        "code": "policy-tests-x-fhir-query"
                    }
                ]
            },
            "attribute": [
                {
                    "attributeId": "encounters",
                    "operation": {
                        "type": "search-type",
                        "path": {
                            "language": "application/x-fhir-query",
                            "expression": "Encounter"
                        },
                        "params": {
                            "language": "application/x-fhir-query",
                            "expression": "patient={{%user.resource.link.reference}}"
                        }
                    }
                }
            ],
            "rule": [
                {
                    "name": "Allow user to only read their Patients Encounters",
                    "target": {
                        "expression": {
                            "language": "text/fhirpath",
                            "expression": "%request.type = 'read-request'"
                        }
                    },
                    "condition": {
                        "expression": {
                            "language": "text/fhirpath",
                            "expression": "%encounters.body.entry.resource.where($this.id=%request.id).exists()"
                        }
                    }
                }
            ]
        },
        {
            "id": "policy-parameters-member1-allowed",
            "resourceType": "Parameters",
            "parameter": [
                {
                    "name": "user",
                    "valueReference": {
                        "reference": "Membership/patient1MemXFhirQuery"
                    }
                },
                {
                    "name": "request",
                    "resource": {
                        "resourceType": "Bundle",
                        "type": "batch",
                        "entry": [
                            {
                                "request": {
                                    "method": "GET",
                                    "url": "Encounter/encounterXFhirQuery1"
                                }
                            }
                        ]
                    }
                }
            ]
        },
        {
            "id": "policy-parameters-member1-forbidden",
            "resourceType": "Parameters",
            "parameter": [
                {
                    "name": "user",
                    "valueReference": {
                        "reference": "Membership/patient1MemXFhirQuery"
                    }
                },
                {
                    "name": "request",
                    "resource": {
                        "resourceType": "Bundle",
                        "type": "batch",
                        "entry": [
                            {
                                "request": {
                                    "method": "GET",
                                    "url": "Encounter/encounterXFhirQuery2"
                                }
                            }
                        ]
                    }
                }
            ]
        }
    ],
    "fixture": [
        {
            "id": "setup",
            "resource": {
                "reference": "#setup"
            }
        },
        {
            "id": "patient-access-policy",
            "resource": {
                "reference": "#patient-access-policy"
            }
        },
        {
            "id": "policy-parameters-member1-forbidden",
            "resource": {
                "reference": "#policy-parameters-member1-forbidden"
            }
        },
        {
            "id": "policy-parameters-member1-allowed",
            "resource": {
                "reference": "#policy-parameters-member1-allowed"
            }
        }
    ],
    "test": [
        {
            "id": "patient-policy-tests",
            "name": "Patient policy tests.",
            "action": [
                {
                    "operation": {
                        "type": {
                            "system": "http://terminology.hl7.org/CodeSystem/testscript-operation-codes",
                            "code": "transaction"
                        },
                        "sourceId": "setup",
                        "responseId": "setup-response"
                    }
                },
                {
                    "assert": {
                        "resource": "Bundle"
                    }
                },
                {
                    "assert": {
                        "expression": "Bundle.entry[5].response.location",
                        "value": "Membership/patient1MemXFhirQuery"
                    }
                },
                {
                    "assert": {
                        "expression": "Bundle.entry[5].resource.link.reference = Bundle.entry[0].response.location",
                        "value": "true"
                    }
                },
                {
                    "assert": {
                        "expression": "Bundle.entry[2].response.location",
                        "value": "Encounter/encounterXFhirQuery1"
                    }
                },
                {
                    "assert": {
                        "expression": "Bundle.entry[0].response.location = Bundle.entry[2].resource.subject.reference",
                        "value": "true"
                    }
                },
                {
                    "operation": {
                        "type": {
                            "system": "http://terminology.hl7.org/CodeSystem/testscript-operation-codes",
                            "code": "create"
                        },
                        "sourceId": "patient-access-policy",
                        "responseId": "patient-access-policy-response"
                    }
                },
                {
                    "assert": {
                        "resource": "AccessPolicyV2"
                    }
                },
                {
                    "operation": {
                        "type": {
                            "system": "http://terminology.hl7.org/CodeSystem/testscript-operation-codes",
                            "code": "invoke"
                        },
                        "targetId": "patient-access-policy-response",
                        "url": "evaluate-policy",
                        "sourceId": "policy-parameters-member1-forbidden"
                    }
                },
                {
                    "assert": {
                        "expression": "OperationOutcome.issue.code",
                        "value": "forbidden"
                    }
                },
                {
                    "operation": {
                        "type": {
                            "system": "http://terminology.hl7.org/CodeSystem/testscript-operation-codes",
                            "code": "invoke"
                        },
                        "targetId": "patient-access-policy-response",
                        "url": "evaluate-policy",
                        "sourceId": "policy-parameters-member1-allowed"
                    }
                },
                {
                    "assert": {
                        "expression": "OperationOutcome.issue.code",
                        "value": "informational"
                    }
                }
            ]
        }
    ],
    "teardown": {
        "action": [
            {
                "operation": {
                    "type": {
                        "system": "http://terminology.hl7.org/CodeSystem/testscript-operation-codes",
                        "code": "delete"
                    },
                    "params": "_tag=policy-tests-x-fhir-query",
                    "description": "Delete data created during test."
                }
            }
        ]
    }
}