{"resourceType":"Bundle","id":"r4b-notification-multi-resource","meta":{"profile":["http://hl7.org/fhir/uv/subscriptions-backport/StructureDefinition/backport-subscription-notification"]},"type":"history","timestamp":"2020-05-29T11:44:13.1882432-05:00","entry":[{"fullUrl":"urn:uuid:f05e460f-4d56-4fa0-8e60-502404e68be5","resource":{"resourceType":"SubscriptionStatus","id":"f05e460f-4d56-4fa0-8e60-502404e68be5","text":{"status":"generated","div":"<div xmlns=\"http://www.w3.org/1999/xhtml\"><a name=\"SubscriptionStatus_f05e460f-4d56-4fa0-8e60-502404e68be5\"> </a><p><b>Generated Narrative: SubscriptionStatus </b><a name=\"f05e460f-4d56-4fa0-8e60-502404e68be5\"> </a><a name=\"hcf05e460f-4d56-4fa0-8e60-502404e68be5\"> </a></p><div style=\"display: inline-block; background-color: #d9e0e7; padding: 6px; margin: 4px; border: 1px solid #8da1b4; border-radius: 5px; line-height: 60%\"><p style=\"margin-bottom: 0px\">ResourceSubscriptionStatus &quot;f05e460f-4d56-4fa0-8e60-502404e68be5&quot; </p></div><p><b>status</b>: active</p><p><b>type</b>: event-notification</p><p><b>eventsSinceSubscriptionStart</b>: 2</p><h3>NotificationEvents</h3><table class=\"grid\"><tr><td style=\"display: none\">-</td><td><b>EventNumber</b></td><td><b>Timestamp</b></td><td><b>Focus</b></td><td><b>AdditionalContext</b></td></tr><tr><td style=\"display: none\">*</td><td>2</td><td>May 29, 2020, 4:44:13\u202fPM</td><td>See on this page: https://example.org/fhir/Encounter/86009987-eabe-42bf-8c02-b112b18cb616</td><td>See on this page: https://example.org/fhir/Patient/1599eb66-431a-447c-a3de-6897fe9ae9a1</td></tr></table><p><b>subscription</b>: <a href=\"https://example.org/fhir/Subscription/admission\">https://example.org/fhir/Subscription/admission</a></p><p><b>topic</b>: <a href=\"http://hl7.org/SubscriptionTopic/admission\">http://hl7.org/SubscriptionTopic/admission</a></p></div>"},"status":"active","type":"event-notification","eventsSinceSubscriptionStart":"2","notificationEvent":[{"eventNumber":"2","timestamp":"2020-05-29T11:44:13.1882432-05:00","focus":{"reference":"https://example.org/fhir/Encounter/86009987-eabe-42bf-8c02-b112b18cb616"},"additionalContext":[{"reference":"https://example.org/fhir/Patient/1599eb66-431a-447c-a3de-6897fe9ae9a1"}]}],"subscription":{"reference":"https://example.org/fhir/Subscription/admission"},"topic":"http://hl7.org/SubscriptionTopic/admission"},"request":{"method":"GET","url":"https://example.org/fhir/Subscription/admission/$status"},"response":{"status":"200"}},{"fullUrl":"https://example.org/fhir/Encounter/86009987-eabe-42bf-8c02-b112b18cb616","resource":{"resourceType":"Encounter","id":"86009987-eabe-42bf-8c02-b112b18cb616","text":{"status":"generated","div":"<div xmlns=\"http://www.w3.org/1999/xhtml\"><a name=\"Encounter_86009987-eabe-42bf-8c02-b112b18cb616\"> </a><p><b>Generated Narrative: Encounter </b><a name=\"86009987-eabe-42bf-8c02-b112b18cb616\"> </a><a name=\"hc86009987-eabe-42bf-8c02-b112b18cb616\"> </a></p><div style=\"display: inline-block; background-color: #d9e0e7; padding: 6px; margin: 4px; border: 1px solid #8da1b4; border-radius: 5px; line-height: 60%\"><p style=\"margin-bottom: 0px\">ResourceEncounter &quot;86009987-eabe-42bf-8c02-b112b18cb616&quot; </p></div><p><b>status</b>: in-progress</p><p><b>class</b>: virtual (Details: ActCode code VR  = ' virtual ', stated as ' null ')</p><p><b>subject</b>: See on this page: https://example.org/fhir/Patient/1599eb66-431a-447c-a3de-6897fe9ae9a1: Example Patient</p></div>"},"status":"in-progress","class":{"system":"http://terminology.hl7.org/CodeSystem/v3-ActCode","code":"VR"},"subject":{"reference":"https://example.org/fhir/Patient/1599eb66-431a-447c-a3de-6897fe9ae9a1","display":"Example Patient"}},"request":{"method":"POST","url":"Encounter"},"response":{"status":"201"}},{"fullUrl":"https://example.org/fhir/Patient/1599eb66-431a-447c-a3de-6897fe9ae9a1","resource":{"resourceType":"Patient","id":"1599eb66-431a-447c-a3de-6897fe9ae9a1","text":{"status":"generated","div":"<div xmlns=\"http://www.w3.org/1999/xhtml\"><a name=\"Patient_1599eb66-431a-447c-a3de-6897fe9ae9a1\"> </a><p><b>Generated Narrative: Patient </b><a name=\"1599eb66-431a-447c-a3de-6897fe9ae9a1\"> </a><a name=\"hc1599eb66-431a-447c-a3de-6897fe9ae9a1\"> </a></p><div style=\"display: inline-block; background-color: #d9e0e7; padding: 6px; margin: 4px; border: 1px solid #8da1b4; border-radius: 5px; line-height: 60%\"><p style=\"margin-bottom: 0px\">ResourcePatient &quot;1599eb66-431a-447c-a3de-6897fe9ae9a1&quot; </p></div><p><b>active</b>: true</p><p><b>name</b>: Example Patient</p></div>"},"active":true,"name":[{"use":"usual","text":"Example Patient","family":"Patient","given":["Example"]}]},"request":{"method":"GET","url":"Patient/1599eb66-431a-447c-a3de-6897fe9ae9a1"},"response":{"status":"200"}}]}